{
    "resourceType": "Immunization",
    "meta": {
        "profile": [
            "https://www.ehealth.fgov.be/standards/fhir/vaccination/StructureDefinition/be-vaccination"
        ]
    },
    "identifier": [{
        "system": " https://www.orgclient.com/example/uri/identifiersystem ",
        "value": "a54b5223-4de3-4957-baf3-24ee880fa2e7"
    }],
    "contained": [
        {
            "resourceType": "Location",
            "id": "a6e5176a-ef08-427a-b517-d8e40f563da0",
            "meta": {
                "profile": [
                    "http://hl7.org/fhir/StructureDefinition/Location"
                ]
            },
            "name": "Cabinet privé",
            "type": [
                {
                    "coding": [
                        {
                            "system": "https://www.ehealth.fgov.be/standards/fhir/vaccination/CodeSystem/be-cs-care-location",
                            "code": "workplace"
                        }
                    ]
                }
            ],
            "address": {
                "city": "Namur",
                "postalCode": "5000",
                "country": "BEL"
            }
        },
        {
            "resourceType": "Encounter",
            "id": "1d75919e-5065-49f6-9db7-b9117c82de47",
            "meta": {
                "profile": [
                    "http://hl7.org/fhir/StructureDefinition/Encounter"
                ]
            },
            "status": "finished",
            "class": {
                "system": "http://terminology.hl7.org/CodeSystem/v3-ActCode",
                "code": "AMB"
            },
            "location": [
                {
                    "location": {
                        "reference": "#a6e5176a-ef08-427a-b517-d8e40f563da0"
                    }
                }
            ]
        }
    ],
    "extension": [
        {
            "url": "https://www.ehealth.fgov.be/standards/fhir/core/StructureDefinition/be-ext-recorder",
            "valueReference": {
                "type": "Practitioner",
                "identifier": {
                    "use": "official",
                    "type": {
                        "coding": [
                            {
                                "system": "http://terminology.hl7.org/CodeSystem/v2-0203",
                                "code": "MD",
                                "display": "Medical License number"
                            }
                        ],
                        "text": "Medical License number"
                    },
                    "system": "https://www.ehealth.fgov.be/standards/fhir/core/NamingSystem/ssin",
                    "value": "69062100976"
                }
            }
        },
        {
            "extension": [
                {
                    "url": "coded",
                    "valueCodeableConcept": {
                        "coding": [
                            {
                                "system": "https://www.ehealth.fgov.be/standards/fhir/medication/NamingSystem/cnk-codes",
                                "code": "4183133",
                                "display": "ROTARIX"
                            },
                            {
                                "system": "https://www.ehealth.fgov.be/standards/fhir/medication/NamingSystem/cti-extended-code",
                                "code": "324956-02",
                                "display": "ROTARIX"
                            }
                        ],
                        "text": "ROTARIX"
                    }
                }
            ],
            "url": "https://www.ehealth.fgov.be/standards/fhir/vaccination/StructureDefinition/be-ext-administeredProduct"
        }
    ],
    "status": "completed",
    "vaccineCode": {
        "coding": [
            {
                "system": "http://snomed.info/sct",
                "code": "871761004"
            }
        ]
    },
    "patient": {
        "identifier": {
            "system": "https://www.ehealth.fgov.be/standards/fhir/core/NamingSystem/ssin",
            "value": "69062100976"
        }
    },
    "occurrenceDateTime": "2020-04-06",
    "recorded": "2020-04-06",
    "doseQuantity": {
        "value": "1"
    },
    "encounter": {
        "reference": "#1d75919e-5065-49f6-9db7-b9117c82de47"
    },
    "performer": [
        {
            "actor": {
                "type": "Practitioner",
                "identifier": {
                    "use": "official",
                    "type": {
                        "coding": [
                            {
                                "system": "http://terminology.hl7.org/CodeSystem/v2-0203",
                                "code": "MD",
                                "display": "Medical License number"
                            }
                        ],
                        "text": "Medical License number"
                    },
                    "system": "https://www.ehealth.fgov.be/standards/fhir/core/NamingSystem/ssin",
                    "value": "69062100976"
                }
            }
        }
    ]
}